      # Columns are: wavelength (microns), kappa ext (cm^2 g^-1),   kappa abs (cm^2 g^-1), kappa sca (cm^2 g^-1), albedo
 # Note that the opacities are per gram of dust
  1.000000000000000E-002   38895.62       22639.07       16256.56    
  0.4179533    
  1.065425796508789E-002   39652.27       22945.20       16707.06    
  0.4213395    
  1.135132217407227E-002   40214.51       23968.89       16245.62    
  0.4039741    
  1.209399185180664E-002   35710.16       22658.97       13051.19    
  0.3654754    
  1.288525085449219E-002   37359.99       22456.79       14903.21    
  0.3989081    
  1.372827911376953E-002   38301.20       22747.20       15554.00    
  0.4060970    
  1.462646331787110E-002   39801.38       23528.09       16273.29    
  0.4088624    
  1.558341217041016E-002   40999.55       24309.52       16690.03    
  0.4070784    
  1.660296936035156E-002   42183.04       25102.34       17080.70    
  0.4049187    
  1.768923339843750E-002   43060.15       25940.00       17120.15    
  0.3975869    
  1.884656524658203E-002   44202.33       26486.79       17715.54    
  0.4007829    
  2.007961883544922E-002   45245.47       27823.35       17422.12    
  0.3850577    
  2.139334411621094E-002   45727.91       27861.53       17866.38    
  0.3907106    
  2.279302062988281E-002   49713.70       31781.92       17931.78    
  0.3607009    
  2.428427276611328E-002   44143.23       27700.85       16442.38    
  0.3724780    
  2.587309265136719E-002   45743.39       28223.70       17519.69    
  0.3829994    
  2.756585998535156E-002   47072.14       28998.78       18073.36    
  0.3839503    
  2.936937866210938E-002   48578.16       29871.87       18706.29    
  0.3850761    
  3.129089660644532E-002   50070.91       30894.38       19176.53    
  0.3829875    
  3.333812866210938E-002   51524.34       31947.94       19576.40    
  0.3799448    
  3.551930541992188E-002   52896.80       32967.30       19929.49    
  0.3767618    
  3.784318542480469E-002   54341.61       34010.50       20331.11    
  0.3741352    
  4.031910705566406E-002   55879.07       35022.27       20856.79    
  0.3732488    
  4.295701904296875E-002   58337.14       36644.91       21692.23    
  0.3718425    
  4.576751708984375E-002   60766.85       38592.03       22174.82    
  0.3649164    
  4.876189575195312E-002   62722.64       40235.16       22487.48    
  0.3585225    
  5.195217895507813E-002   64488.76       41658.86       22829.90    
  0.3540137    
  5.535119628906250E-002   66715.34       43101.96       23613.38    
  0.3539422    
  5.897258911132813E-002   71183.40       45803.92       25379.48    
  0.3565365    
  6.283092651367188E-002   78183.38       50623.39       27559.98    
  0.3525044    
  6.694168701171875E-002   85015.91       55685.45       29330.47    
  0.3449997    
  7.132141113281250E-002   90329.88       59751.12       30578.75    
  0.3385231    
  7.598766479492187E-002   92954.41       61769.71       31184.70    
  0.3354838    
  8.095922851562501E-002   91410.89       60804.35       30606.54    
  0.3348238    
  8.625604858398438E-002   88462.67       59101.54       29361.13    
  0.3319042    
  9.189943237304687E-002   88421.98       58743.65       29678.34    
  0.3356443    
  9.791201782226563E-002   86306.75       56410.87       29895.89    
  0.3463911    
  0.104317980957031        82291.95       52752.68       29539.27    
  0.3589570    
  0.111143090820312        77368.41       48941.14       28427.27    
  0.3674273    
  0.118414709472656        73348.11       45791.20       27556.91    
  0.3757004    
  0.126162097167969        69805.61       42891.56       26914.04    
  0.3855571    
  0.134416345214844        66643.23       40138.59       26504.64    
  0.3977095    
  0.143210656738281        63892.80       37261.48       26631.32    
  0.4168125    
  0.152580322265625        59693.11       32107.46       27585.64    
  0.4621244    
  0.162563037109375        54810.18       25878.68       28931.50    
  0.5278491    
  0.173198840332031        50325.04       20027.72       30297.31    
  0.6020325    
  0.184530541992188        46344.44       14853.86       31490.57    
  0.6794899    
  0.196603588867188        42979.82       10769.88       32209.94    
  0.7494202    
  0.209466552734375        40109.91       7915.632       32194.28    
  0.8026515    
  0.223171069335937        37329.61       6371.999       30957.61    
  0.8293044    
  0.237772241210938        34641.37       5680.762       28960.61    
  0.8360122    
  0.253328662109375        32317.67       5317.912       26999.76    
  0.8354488    
  0.269902880859375        30339.11       4946.732       25392.38    
  0.8369520    
  0.287561572265625        28617.12       4622.074       23995.04    
  0.8384857    
  0.306375512695312        27042.22       4315.372       22726.85    
  0.8404210    
  0.326420361328125        25559.32       4027.657       21531.67    
  0.8424193    
  0.347776635742188        24070.75       3757.271       20313.48    
  0.8439072    
  0.370530200195313        22598.83       3497.636       19101.19    
  0.8452293    
  0.394772558593750        21094.78       3264.547       17830.23    
  0.8452438    
  0.420600830078125        19540.93       3025.276       16515.65    
  0.8451826    
  0.448118945312500        18049.66       2813.285       15236.37    
  0.8441364    
  0.477437451171875        16539.07       2617.007       13922.06    
  0.8417683    
  0.508674365234375        15006.62       2421.213       12585.41    
  0.8386570    
  0.541954736328125        13580.15       2241.664       11338.48    
  0.8349308    
  0.577412548828125        12257.92       2085.998       10171.92    
  0.8298245    
  0.615190185546875        10953.77       1935.068       9018.703    
  0.8233423    
  0.655439697265625        9691.695       1785.431       7906.265    
  0.8157772    
  0.698322314453125        8569.360       1647.153       6922.207    
  0.8077857    
  0.744010595703125        7585.411       1527.642       6057.769    
  0.7986079    
  0.792688037109375        6688.180       1419.397       5268.783    
  0.7877753    
  0.844550585937500        5850.144       1317.246       4532.897    
  0.7748352    
  0.899805859375000        5070.391       1216.039       3854.352    
  0.7601686    
  0.958676367187500        4376.913       1118.470       3258.443    
  0.7444614    
   1.02139843750000        3791.361       1027.965       2763.396    
  0.7288665    
   1.08822421875000        3308.473       948.5585       2359.914    
  0.7132941    
   1.15942246093750        2906.808       877.8562       2028.952    
  0.6979999    
   1.23527861328125        2567.958       815.5659       1752.393    
  0.6824069    
   1.31609755859375        2279.995       760.9645       1519.031    
  0.6662429    
   1.40220419921875        2033.299       712.1296       1321.170    
  0.6497664    
   1.49394501953125        1820.754       667.0358       1153.718    
  0.6336485    
   1.59168750000000        1636.700       626.0096       1010.690    
  0.6175172    
   1.69582480468750        1476.474       587.4427       889.0313    
  0.6021313    
   1.80677539062500        1338.297       552.9795       785.3171    
  0.5868035    
   1.92498574218750        1216.883       521.7446       695.1385    
  0.5712451    
   2.05092929687500        1109.426       492.9055       616.5203    
  0.5557112    
   2.18511289062500        1015.345       466.4740       548.8714    
  0.5405760    
   2.32807558593750        931.6172       442.1970       489.4202    
  0.5253448    
   2.48039257812500        855.6206       419.7272       435.8934    
  0.5094470    
   2.64267402343750        786.7040       398.6630       388.0410    
  0.4932490    
   2.81557304687500        726.3632       379.6558       346.7074    
  0.4773196    
   2.99978398437500        672.1735       361.9276       310.2459    
  0.4615564    
   3.19604707031250        624.0697       346.5401       277.5296    
  0.4447092    
   3.40515195312500        579.3555       331.5378       247.8177    
  0.4277472    
   3.62793671875000        538.1249       316.6315       221.4935    
  0.4116023    
   3.86529687500000        500.6407       302.0663       198.5743    
  0.3966404    
   4.11818710937500        467.6266       288.8563       178.7704    
  0.3822930    
   4.38762382812500        437.0032       275.3386       161.6646    
  0.3699392    
   4.67468750000000        410.3057       263.7852       146.5204    
  0.3571007    
   4.98053242187500        387.2607       254.0691       133.1916    
  0.3439326    
   5.30638750000000        368.5119       247.4042       121.1077    
  0.3286399    
   5.65356367187500        353.9402       243.6923       110.2479    
  0.3114875    
   6.02345000000000        344.0450       243.7127       100.3323    
  0.2916256    
   6.41754140625000        335.1494       244.0112       91.13813    
  0.2719329    
   6.83741640625000        323.2800       240.9413       82.33865    
  0.2546977    
   7.28475625000000        323.1283       250.9624       72.16590    
  0.2233351    
   7.76137031250000        477.3799       419.6653       57.71460    
  0.1208987    
   8.26916640625000        1050.533       999.3722       51.16106    
  4.8700087E-02
   8.81017968750000        1683.177       1628.523       54.65356    
  3.2470476E-02
   9.38659531250000        2440.802       2378.326       62.47522    
  2.5596188E-02
   10.0007164062500        2236.646       2171.708       64.93775    
  2.9033540E-02
   10.6550250000000        1822.024       1756.452       65.57201    
  3.5988558E-02
   11.3521421875000        1382.799       1319.370       63.42934    
  4.5870237E-02
   12.0948593750000        1053.899       992.5399       61.35941    
  5.8221325E-02
   12.8861796875000        797.0933       738.1661       58.92712    
  7.3927507E-02
   13.7292625000000        623.2947       567.2032       56.09153    
  8.9991979E-02
   14.6275156250000        610.7180       558.5974       52.12062    
  8.5343190E-02
   15.5845359375000        701.3088       652.1597       49.14916    
  7.0082046E-02
   16.6041609375000        817.5776       769.7029       47.87473    
  5.8556803E-02
   17.6905062500000        907.8884       859.7329       48.15552    
  5.3041231E-02
   18.8479281250000        910.1532       860.9743       49.17888    
  5.4033633E-02
   20.0810593750000        819.0839       769.2825       49.80134    
  6.0801268E-02
   21.3948859375000        720.2725       670.6932       49.57930    
  6.8834081E-02
   22.7946531250000        636.3967       587.2115       49.18520    
  7.7287011E-02
   24.2860203125000        567.2735       518.5905       48.68298    
  8.5819237E-02
   25.8749609375000        506.9530       458.7531       48.19992    
  9.5077693E-02
   27.5678375000000        452.9651       405.2653       47.69977    
  0.1053056    
   29.3714968750000        407.3872       360.1628       47.22445    
  0.1159203    
   31.2931343750000        367.5215       320.7969       46.72468    
  0.1271345    
   33.3405250000000        331.7744       285.5425       46.23183    
  0.1393472    
   35.5218656250000        302.1796       256.5083       45.67131    
  0.1511396    
   37.8458968750000        275.1183       229.9976       45.12067    
  0.1640046    
   40.3220062500000        250.3045       205.7425       44.56205    
  0.1780313    
   42.9601218750000        227.9676       183.9877       43.97982    
  0.1929214    
   45.7708000000000        207.9898       164.5991       43.39072    
  0.2086195    
   48.7654062500000        190.4097       147.6007       42.80900    
  0.2248257    
   51.9559000000000        174.7828       132.5105       42.27229    
  0.2418562    
   55.3551750000000        161.1547       119.3769       41.77784    
  0.2592406    
   58.9768500000000        149.1071       107.7739       41.33311    
  0.2772042    
   62.8354312500000        138.5758       97.66675       40.90904    
  0.2952106    
   66.9465125000000        129.2661       88.79718       40.46894    
  0.3130669    
   71.3265625000000        120.9803       81.00899       39.97136    
  0.3303955    
   75.9931250000000        113.5480       74.16248       39.38555    
  0.3468624    
   80.9650625000000        106.7446       68.04039       38.70419    
  0.3625869    
   86.2622312500000        100.4644       62.52742       37.93696    
  0.3776160    
   91.9060312500000        94.64728       57.54168       37.10560    
  0.3920408    
   97.9190875000000        89.28049       53.04903       36.23146    
  0.4058161    
   104.325481250000        84.31311       48.98297       35.33014    
  0.4190350    
   111.151087500000        79.73701       45.31739       34.41962    
  0.4316643    
   118.423187500000        75.46793       41.95327       33.51466    
  0.4440914    
   126.171162500000        71.56756       38.94934       32.61822    
  0.4557683    
   134.426050000000        67.90405       36.16619       31.73787    
  0.4673928    
   143.220925000000        64.56118       33.68623       30.87495    
  0.4782278    
   152.591312500000        61.38811       31.35704       30.03108    
  0.4892002    
   162.574775000000        58.49228       29.28211       29.21016    
  0.4993850    
   173.211287500000        55.68093       27.26030       28.42063    
  0.5104195    
   184.543837500000        53.13384       25.48058       27.65327    
  0.5204455    
   196.617675000000        50.67426       23.77699       26.89726    
  0.5307876    
   209.481612500000        48.41219       22.22835       26.18384    
  0.5408522    
   223.187175000000        46.23132       20.76406       25.46726    
  0.5508659    
   237.789275000000        44.20999       19.40815       24.80184    
  0.5610007    
   253.346925000000        42.24997       18.11024       24.13973    
  0.5713550    
   269.922425000000        40.36024       16.77506       23.58518    
  0.5843667    
   287.582200000000        38.60487       15.61690       22.98797    
  0.5954682    
   306.397575000000        36.89788       14.45621       22.44167    
  0.6082103    
   326.443750000000        35.39276       13.53664       21.85612    
  0.6175308    
   347.801700000000        33.78294       12.45421       21.32873    
  0.6313462    
   370.557025000000        32.50185       11.72856       20.77328    
  0.6391417    
   394.800850000000        30.98124       10.77802       20.20322    
  0.6521114    
   420.631150000000        29.88752       10.19140       19.69612    
  0.6590081    
   448.151050000000        28.42658       9.336954       19.08963    
  0.6715415    
   477.471850000000        27.49972       8.876765       18.62296    
  0.6772052    
   508.711000000000        26.08671       8.114951       17.97176    
  0.6889239    
   541.993600000000        25.30288       7.739818       17.56306    
  0.6941132    
   577.454150000000        23.93600       7.067768       16.86823    
  0.7047222    
   615.234750000000        23.25838       6.757043       16.50134    
  0.7094792    
   655.486650000000        21.96268       6.163337       15.79935    
  0.7193723    
   698.372650000000        21.34547       5.903244       15.44222    
  0.7234427    
   744.063900000000        20.14199       5.390089       14.75190    
  0.7323954    
   792.745100000000        19.57970       5.165669       14.41403    
  0.7361722    
   844.611400000000        18.45987       4.795205       13.66466    
  0.7402362    
   899.870400000000        17.96764       4.679368       13.28827    
  0.7395668    
   958.745400000000        16.93103       4.357466       12.57356    
  0.7426342    
   1021.47160000000        16.43742       4.229192       12.20823    
  0.7427095    
   1088.30260000000        15.50406       3.956032       11.54803    
  0.7448390    
   1159.50600000000        15.00974       3.815676       11.19407    
  0.7457867    
   1235.36710000000        14.15821       3.575916       10.58230    
  0.7474317    
   1316.19240000000        13.66720       3.436661       10.23054    
  0.7485467    
   1402.30580000000        12.88768       3.225025       9.662659    
  0.7497591    
   1494.05210000000        12.40885       3.081734       9.327121    
  0.7516505    
   1591.80220000000        11.72293       2.903913       8.819020    
  0.7522879    
   1695.94640000000        11.21300       2.753808       8.459189    
  0.7544093    
   1806.90560000000        10.58924       2.611658       7.977578    
  0.7533668    
   1925.12440000000        10.05167       2.445745       7.605926    
  0.7566828    
   2051.07640000000        9.554317       2.330842       7.223476    
  0.7560431    
   2185.27040000000        9.021114       2.166215       6.854899    
  0.7598728    
   2328.24420000000        8.616049       2.074042       6.542007    
  0.7592816    
   2480.57040000000        8.041869       1.910766       6.131104    
  0.7623978    
   2642.86440000000        7.660929       1.841832       5.819098    
  0.7595811    
   2815.77480000000        7.029562       1.676834       5.352728    
  0.7614597    
   3000.00000000000        6.704395       1.631514       5.072881    
  0.7566501    
